Folder: CrystaLenz/sample_data

Note: README.md
<p align="center">
  <img src="web/public/logo.jpg" alt="CrystaLens logo" width="180">
</p>

CrystaLens is an AI-assisted workflow for X-ray diffraction (XRD) analysis. It combines an agentic backend (Starlette + Google ADK) with a modern Next.js web UI. The system can:

- **Run an end-to-end XRD pipeline**: load and preprocess data, detect peaks, compute Scherrer/Williamson–Hall size/strain, cross-check against Materials Project references, and generate plots/reports.
- **Mine research papers**: search Google Programmable Search (CSE), download PDFs, and extract text for quick literature triage.
- **RAG (Retrieval-Augmented Generation)**: build a FAISS vector database from extracted paper texts using OpenAI embeddings, then semantically retrieve the most relevant chunks to augment agent responses with cited, evidence-based context.
- Stream results to the web UI as the pipeline progresses.

<p align="center">
  <img src="docs/media/workflow.png" alt="CrystaLens workflow diagram" width="800">
</p>

---

## Quick start

### Prerequisites

- Python 3.11+
- Node.js 20+ and pnpm (or npm/yarn)

### 1) Backend (API)

```bash
cd backend
python3 -m venv .venv && source .venv/bin/activate
pip install -r ../requirements.txt
# Install project in editable mode (enables clean imports)
pip install -e ..

# Run the API
uvicorn app.main:app --reload --host 0.0.0.0 --port 8000
```

The API exposes:

- POST `/api/runs` → returns `{ "run_id": string }`
- WebSocket `/api/runs/{run_id}/stream` → server-sent JSON events: `status | event | error | done`
- Static artifacts: `/xrd_outputs/*` serves generated plots from `xrd_outputs/`

### 2) Web (UI)

```bash
cd web
pnpm i   # or npm i / yarn

# Optional: configure env (defaults shown)
# NEXT_PUBLIC_API_HTTP=http://localhost:8000
# NEXT_PUBLIC_API_WS=ws://localhost:8000

pnpm dev
```

Open the UI at http://localhost:3000

---

## Environment variables

Create a `.env` at the project root for Python tools that call `dotenv.load_dotenv()`.

```bash
# Research paper mining (Google Programmable Search)
GOOGLE_CSE_API_KEY=...
GOOGLE_CSE_ID=...

# Materials Project (XRD reference patterns)
MP_API_KEY=...

# RAG embeddings (OpenAI text-embedding-3-large)
OPENAI_API_KEY=...

# Optional – model providers used by google-adk/google-genai
# GOOGLE_API_KEY=...
# GOOGLE_GENAI_API_KEY=...
```

Notes:

- Paper search requires both `GOOGLE_CSE_API_KEY` and `GOOGLE_CSE_ID`.
- RAG vector store creation requires `OPENAI_API_KEY` (for `text-embedding-3-large` embeddings).
- Materials Project lookups require `MP_API_KEY`.
- Static plot export uses Plotly + Kaleido (already in `requirements.txt`).

---

## How it works

### High-level architecture

- Backend: Starlette app (`backend/app/main.py`) that adapts the agent runtime to simple HTTP + WS endpoints. It streams agent events to the UI and serves generated artifacts.
- Agents: Defined with Google ADK in `src/`. The top-level `root_agent` orchestrates a research and XRD pipeline, followed b

File: sample_xrd.csv
two_theta,intensity
10,2.926
10.2453,2.87
10.4906,2.855
10.7359,2.853
10.9811,2.828
11.2264,2.792
11.4717,2.79
11.717,2.711
11.9623,2.708
12.2076,2.725
12.4529,2.727
12.6982,2.694
12.9434,2.697
13.1887,2.659
13.434,2.625
13.6793,2.633
13.9246,2.611
14.1699,2.619
14.4152,2.59
14.6605,2.632
14.9057,2.54
15.151,2.577
15.3963,2.582
15.6416,2.54
15.8869,2.596
16.1322,2.538
16.3775,2.553
16.6227,2.583
16.868,2.593
17.1133,2.579
17.3586,2.572
17.6039,2.642
17.8492,2.617
18.0945,2.732
18.3398,2.662
18.585,2.665
18.8303,2.647
19.0756,2.717
19.3209,2.705
19.5662,2.726
19.8115,2.651
20.0568,2.655
20.3021,2.614
20.5473,2.599
20.7926,2.607
21.0379,2.592
21.2832,2.577
21.5285,2.615
21.7738,2.61
22.0191,2.566
22.2643,2.544
22.5096,2.567
22.7549,2.548
23.0002,2.554
23.2455,2.583
23.4908,2.502
23.7361,2.539
23.9814,2.564
24.2266,2.519
24.4719,2.536
24.7172,2.538
24.9625,2.508
25.2078,2.571
25.4531,2.558
25.6984,2.518
25.9437,2.536
26.1889,2.541
26.4342,2.544
26.6795,2.569
26.9248,2.515
27.1701,2.546
27.4154,2.54
27.6607,2.631
27.9059,2.581
28.1512,2.532
28.3965,2.485
28.6418,2.542
28.8871,2.655
29.1324,2.653
29.3777,2.556
29.623,2.568
29.8682,2.499
30.1135,2.54
30.3588,2.537
30.6041,2.533
30.8494,2.522
31.0947,2.559
31.34,2.548
31.5853,2.569
31.8305,2.573
32.0758,2.573
32.3211,2.679
32.5664,2.765
32.8117,2.725
33.057,2.7
33.3023,2.635
33.5476,2.596
33.7928,2.602
34.0381,2.632
34.2834,2.647
34.5287,2.668
34.774,2.69
35.0193,2.656
35.2646,2.697
35.5098,2.711
35.7551,2.839
36.0004,3.003
36.2457,3.139
36.491,2.937
36.7363,2.89
36.9816,2.869
37.2269,2.788
37.4721,2.797
37.7174,2.802
37.9627,2.77
38.208,2.728
38.4533,2.668
38.6986,2.587
38.9439,2.614
39.1892,2.579
39.4344,2.493
39.6797,2.525
39.925,2.582
40.1703,2.57
40.4156,2.525
40.6609,2.48
40.9062,2.551
41.1514,2.496
41.3967,2.524
41.642,2.524
41.8873,2.503
42.1326,2.512
42.3779,2.545
42.6232,2.465
42.8685,2.446
43.1137,2.455
43.359,2.446
43.6043,2.414
43.8496,2.435
44.0949,2.474
44.3402,2.471
44.5855,2.455
44.8308,2.418
45.076,2.409
45.3213,2.394
45.5666,2.454
45.8119,2.416
46.0572,2.438
46.3025,2.407
46.5478,2.393
46.793,2.406
47.0383,2.391
47.2836,2.423
47.5289,2.373
47.7742,2.407
48.0195,2.417
48.2648,2.428
48.5101,2.408
48.7553,2.405
49.0006,2.379
49.2459,2.422
49.4912,2.423
49.7365,2.417
49.9818,2.448
50.2271,2.453
50.4724,2.446
50.7176,2.432
50.9629,2.49
51.2082,2.451
51.4535,2.462
51.6988,2.4
51.9441,2.401
52.1894,2.381
52.4346,2.393
52.6799,2.405
52.9252,2.398
53.1705,2.424
53.4158,2.44
53.6611,2.44
53.9064,2.432
54.1517,2.456
54.3969,2.38
54.6422,2.412
54.8875,2.436
55.1328,2.4
55.3781,2.428
55.6234,2.42
55.8687,2.402
56.114,2.4
56.3592,2.406
56.6045,2.369
56.8498,2.372
57.0951,2.353
57.3404,2.408
57.5857,2.352
57.831,2.365
58.0762,2.353
58.3215,2.416
58.5668,2.436
58.8121,2.36
59.0574,2.381
59.3027,2.361
59.548,2.366
59.7933,2.392
60.0385,2.426
60.2838,2.435
60.5291,2.364
60.7744,2.33
61.0197,2.311
61.265,2.316
61.5103,2.329
61.7556,2.288
62.0008,2.301
62.2461,2.297
62.4914,2.308
62.7367,2.299
62.982,2.296
63.2273,2.281
63.4726,2.298
63.7178,2.317
63.9631,2.297
64.2084,2.332
64.4537,2.334
64.699,2.342
64.9443,2.393
65.1896,2.337
65.4349,2.344
65.6801,2.336
65.9254,2.326
66.1707,2.333
66.416,2.3
66.6613,2.301
66.9066,2.286
67.1519,2.311
67.3972,2.261
67.6424,2.281
67.8877,2.271
68.133,2.251
68.3783,2.257
68.6236,2.227
68.8689,2.244
69.1142,2.244
69.3595,2.235
69.6047,2.204
69.85,2.225
70.0953,2.224
70.3406,2.212
70.5859,2.214
70.8312,2.195
71.0765,2.215
71.3217,2.208
71.567,2.193
71.8123,2.215
72.0576,2.164
72.3029,2.208
72.5482,2.216
72.7935,2.166
73.0388,2.207
73.284,2.196
73.5293,2.202
73.7746,2.183
74.0199,2.175
74.2652,2.221
74.5105,2.223
74.7558,2.224
75.0011,2.204
75.2463,2.212
75.4916,2.191
75.7369,2.21
75.9822,2.167
76.2275,2.178
76.4728,2.196
76.7181,2.187
76.9633,2.195
77.2086,2.191
77.4539,2.209
77.6992,2.19
77.9445,2.191
78.1898,2.187
78.4351,2.187
78.6804,2.199
78.9256,2.195
79.1709,2.178
79.4162,2.189
79.6615,2.161
79.9068,2.15
79.9886,2.156

File: sample_xrd_2.csv
two_theta,intensity
10,123.97
10.24,122.84
10.48,120.43
10.72,122.07
10.96,126.1
11.2,114.35
11.44,118.23
11.68,116.91
11.92,116.34
12.16,127.22
12.4,117.97
12.64,126.33
12.88,119.15
13.12,123.93
13.36,122.56
13.6,129.94
13.84,121.56
14.08,113.29
14.32,126.3
14.56,119.41
14.8,119.36
15.04,132.45
15.28,126.24
15.52,120.13
15.76,122.55
16,132.72
16.24,132.87
16.48,133.32
16.72,120.93
16.96,116.45
17.2,123.66
17.44,128.78
17.68,116.56
17.92,128.44
18.16,114.74
18.4,125.24
18.64,124.19
18.88,123.2
19.12,130.37
19.36,130.59
19.6,126.25
19.84,123.77
20.08,110.45
20.32,128.69
20.56,126.71
20.8,117.06
21.04,127.05
21.28,130.14
21.52,132.39
21.76,126.96
22,128.44
22.24,118.81
22.48,128.36
22.72,125.13
22.96,126.98
23.2,117.77
23.44,122.74
23.68,124.2
23.92,114.85
24.16,125.42
24.4,126.13
24.64,129.43
24.88,127.26
25.12,122.23
25.36,120.52
25.6,126.74
25.84,129.63
26.08,133.58
26.32,125.22
26.56,133.38
26.8,136.91
27.04,132
27.28,124.07
27.52,127.56
27.76,115.19
28,129.89
28.24,283.25
28.48,965.44
28.72,150.05
28.96,130.02
29.2,136.26
29.44,129.38
29.68,130.21
29.92,132.26
30.16,132.29
30.4,130.29
30.64,126.17
30.88,124.94
31.12,129.58
31.36,136.14
31.6,130.22
31.84,133.06
32.08,123.68
32.32,134.92
32.56,128.11
32.8,138.01
33.04,130.87
33.28,124.66
33.52,125.86
33.76,132.82
34,123.23
34.24,129
34.48,125.51
34.72,130.23
34.96,129.33
35.2,135.27
35.44,128.48
35.68,130.75
35.92,122.65
36.16,116.73
36.4,126.91
36.64,135.18
36.88,125.72
37.12,129.09
37.36,137.29
37.6,137.28
37.84,128.53
38.08,128.42
38.32,142.56
38.56,134.78
38.8,128.27
39.04,131.16
39.28,136.72
39.52,142.35
39.76,133.6
40,129.22
40.24,136.62
40.48,130.11
40.72,136.07
40.96,135.17
41.2,130.55
41.44,134.31
41.68,132.1
41.92,134.39
42.16,131.79
42.4,135.86
42.64,133.8
42.88,125.7
43.12,135.2
43.36,134.76
43.6,125.94
43.84,126.63
44.08,134.82
44.32,130.81
44.56,134.19
44.8,131.98
45.04,130.73
45.28,128.85
45.52,127.47
45.76,135.81
46,134.2
46.24,135.87
46.48,130.2
46.72,135.81
46.96,147.07
47.2,505.6
47.44,405.27
47.68,130.9
47.92,127.43
48.16,132.93
48.4,129.91
48.64,131.17
48.88,133.68
49.12,140.22
49.36,133.63
49.6,136.74
49.84,137.14
50.08,129.06
50.32,136.04
50.56,137.31
50.8,141
51.04,142.28
51.28,135.05
51.52,136.52
51.76,133.65
52,138.18
52.24,141.56
52.48,136.96
52.72,138.45
52.96,135.49
53.2,134.81
53.44,136.02
53.68,128.92
53.92,136.83
54.16,140.89
54.4,138.4
54.64,131.61
54.88,140.61
55.12,139.91
55.36,129.13
55.6,144.87
55.84,186.48
56.08,475.69
56.32,255.84
56.56,141.59
56.8,146.4
57.04,138.92
57.28,151.87
57.52,141.84
57.76,145.05
58,137.31
58.24,131.13
58.48,140.26
58.72,134.95
58.96,143.82
59.2,133.79
59.44,141.83
59.68,139.8
59.92,139.8
60.16,145.05
60.4,139.56
60.64,141.97
60.88,140.63
61.12,130.47
61.36,132.03
61.6,136.24
61.84,143.65
62.08,147.31
62.32,141.49
62.56,137.56
62.8,144.7
63.04,148.3
63.28,139.87
63.52,149.92
63.76,148.64
64,146.61
64.24,142.06
64.48,139.62
64.72,137.94
64.96,141.95
65.2,139.42
65.44,141.79
65.68,145.05
65.92,146.04
66.16,144.75
66.4,135.77
66.64,148.45
66.88,140.39
67.12,143.52
67.36,144.27
67.6,145.59
67.84,143.71
68.08,142.25
68.32,152.3
68.56,137.87
68.8,169.01
69.04,324.45
69.28,273.28
69.52,146.82
69.76,146.26
70,151.5
70.24,143.26
70.48,144.64
70.72,146.31
70.96,150.18
71.2,151.75
71.44,138.12
71.68,143.74
71.92,152.86
72.16,139.87
72.4,148.13
72.64,146.84
72.88,144.72
73.12,160.19
73.36,142.36
73.6,142.14
73.84,147.63
74.08,149.47
74.32,140.86
74.56,150.65
74.8,153.26
75.04,140.79
75.28,145.49
75.52,152.88
75.76,146.2
76,157.45
76.24,239.63
76.48,266.16
76.72,159.27
76.96,151.63
77.2,148.67
77.44,141.69
77.68,148.84
77.92,144.82
78.16,151.93
78.4,149.63
78.64,148.01
78.88,155.38
79.12,151.16
79.36,157.21
79.6,147.74
79.84,148.95
79.98,153.41